{"g2bw3nwyg2rqv3b":{"data":[{"StartTime":1587609082718,"internal_node_id":"0.0-0.0","phase":"Consent","rt":3603.000000000001,"subject":"g2bw3nwyg2rqv3b","time_elapsed":3836,"trial_index":0,"trial_type":"external-html","url":"forms/consent.html"},{"StartTime":1587609082718,"internal_node_id":"0.0-2.0","key_press":32,"phase":"Welcome","rt":1664.000000000001,"stimulus":"<p>Welcome to the experiment. This experiment should take no longer than 5 minutes.</p> <p>Press any key to begin.</p>","subject":"g2bw3nwyg2rqv3b","time_elapsed":5502,"trial_index":1,"trial_type":"html-keyboard-response"},{"StartTime":1587609082718,"internal_node_id":"0.0-3.0","subject":"g2bw3nwyg2rqv3b","success":true,"time_elapsed":11986,"trial_index":2,"trial_type":"fullscreen"},{"StartTime":1587609082718,"fullscreen":false,"internal_node_id":"0.0-4.0-0.0","key_press":32,"phase":"Instructions","rt":1571,"stimulus":"<p>Please read these instructions carefully.</p><p>In this 'experiment' you will be presented with words in coloured text. You will be identifying the colour of that text by pressing keys on the keyboard. J = Red, K = Yellow, L = Green. Please use just your dominant hand to make responses. Also, when prompted to provide a word, respond by typing in the word 'clean'. You will have 2 seconds to respond to each stimuli.</p><p>Press any key to begin.</p>","subject":"g2bw3nwyg2rqv3b","time_elapsed":13558,"trial_index":3,"trial_type":"html-keyboard-response"},{"StartTime":1587609082718,"fullscreen":false,"internal_node_id":"0.0-4.0-1.0","phase":"Attention_Check","responses":"{\"Attention_check\":\"clean\"}","rt":2980,"subject":"g2bw3nwyg2rqv3b","time_elapsed":17557,"trial_index":4,"trial_type":"survey-text"},{"StartTime":1587609082718,"internal_node_id":"0.0-5.0","phase":"Fixation","stimulus":"<p id = 'fixation_stim', style = 'color: black; font-size: 60pt;'>+</p>","subject":"g2bw3nwyg2rqv3b","time_elapsed":21310,"trial_index":5,"trial_type":"html-keyboard-response"},{"StartTime":1587609082718,"internal_node_id":"0.0-6.0-0.0","phase":"Fixation","stimulus":"<p id = 'fixation_stim', style = 'color: black; font-size: 60pt;'>+</p>","subject":"g2bw3nwyg2rqv3b","time_elapsed":21561,"trial_index":6,"trial_type":"html-keyboard-response"},{"StartTime":1587609082718,"colour":"red","cor_response":"j","correct":true,"internal_node_id":"0.0-6.0-1.0","key_press":74,"phase":"Practice","rt":671,"stim_type":"Practice","stimulus":"<p id = 'contingency_stim', style = 'color: red; font-size: 60pt;'>PAINT</p>","subject":"g2bw3nwyg2rqv3b","time_elapsed":22234,"trial_index":7,"trial_type":"html-keyboard-response","word":"PAINT"},{"StartTime":1587609082718,"internal_node_id":"0.0-6.0-2.0","phase":"Feedback","stimulus":"<p id = 'fixation_stim', style = 'color: white; font-size: 60pt;'>BLANK</p>","subject":"g2bw3nwyg2rqv3b","time_elapsed":22235,"trial_index":8,"trial_type":"html-keyboard-response"},{"StartTime":1587609082718,"internal_node_id":"0.0-6.0-0.1","phase":"Fixation","stimulus":"<p id = 'fixation_stim', style = 'color: black; font-size: 60pt;'>+</p>","subject":"g2bw3nwyg2rqv3b","time_elapsed":22487,"trial_index":9,"trial_type":"html-keyboard-response"},{"StartTime":1587609082718,"colour":"green","cor_response":"l","correct":true,"internal_node_id":"0.0-6.0-1.1","key_press":76,"phase":"Practice","rt":517.9999999999964,"stim_type":"Practice","stimulus":"<p id = 'contingency_stim', style = 'color: green; font-size: 60pt;'>UNDER</p>","subject":"g2bw3nwyg2rqv3b","time_elapsed":23006,"trial_index":10,"trial_type":"html-keyboard-response","word":"UNDER"},{"StartTime":1587609082718,"internal_node_id":"0.0-6.0-2.1","phase":"Feedback","stimulus":"<p id = 'fixation_stim', style = 'color: white; font-size: 60pt;'>BLANK</p>","subject":"g2bw3nwyg2rqv3b","time_elapsed":23007,"trial_index":11,"trial_type":"html-keyboard-response"},{"StartTime":1587609082718,"internal_node_id":"0.0-6.0-0.2","phase":"Fixation","stimulus":"<p id = 'fixation_stim', style = 'color: black; font-size: 60pt;'>+</p>","subject":"g2bw3nwyg2rqv3b","time_elapsed":23259,"trial_index":12,"trial_type":"html-keyboard-response"},{"StartTime":1587609082718,"colour":"yellow","cor_response":"k","correct":true,"internal_node_id":"0.0-6.0-1.2","key_press":75,"phase":"Practice","rt":417,"stim_type":"Practice","stimulus":"<p id = 'contingency_stim', style = 'color: yellow; font-size: 60pt;'>PLATE</p>","subject":"g2bw3nwyg2rqv3b","time_elapsed":23678,"trial_index":13,"trial_type":"html-keyboard-response","word":"PLATE"},{"StartTime":1587609082718,"internal_node_id":"0.0-6.0-2.2","phase":"Feedback","stimulus":"<p id = 'fixation_stim', style = 'color: white; font-size: 60pt;'>BLANK</p>","subject":"g2bw3nwyg2rqv3b","time_elapsed":23679,"trial_index":14,"trial_type":"html-keyboard-response"},{"StartTime":1587609082718,"internal_node_id":"0.0-6.0-0.3","phase":"Fixation","stimulus":"<p id = 'fixation_stim', style = 'color: black; font-size: 60pt;'>+</p>","subject":"g2bw3nwyg2rqv3b","time_elapsed":23931,"trial_index":15,"trial_type":"html-keyboard-response"},{"StartTime":1587609082718,"colour":"red","cor_response":"j","correct":true,"internal_node_id":"0.0-6.0-1.3","key_press":74,"phase":"Practice","rt":700,"stim_type":"Practice","stimulus":"<p id = 'contingency_stim', style = 'color: red; font-size: 60pt;'>CLOCK</p>","subject":"g2bw3nwyg2rqv3b","time_elapsed":24632,"trial_index":16,"trial_type":"html-keyboard-response","word":"CLOCK"},{"StartTime":1587609082718,"internal_node_id":"0.0-6.0-2.3","phase":"Feedback","stimulus":"<p id = 'fixation_stim', style = 'color: white; font-size: 60pt;'>BLANK</p>","subject":"g2bw3nwyg2rqv3b","time_elapsed":24633,"trial_index":17,"trial_type":"html-keyboard-response"},{"StartTime":1587609082718,"internal_node_id":"0.0-6.0-0.4","phase":"Fixation","stimulus":"<p id = 'fixation_stim', style = 'color: black; font-size: 60pt;'>+</p>","subject":"g2bw3nwyg2rqv3b","time_elapsed":24885,"trial_index":18,"trial_type":"html-keyboard-response"},{"StartTime":1587609082718,"colour":"red","cor_response":"j","correct":true,"internal_node_id":"0.0-6.0-1.4","key_press":74,"phase":"Practice","rt":559,"stim_type":"Practice","stimulus":"<p id = 'contingency_stim', style = 'color: red; font-size: 60pt;'>UNDER</p>","subject":"g2bw3nwyg2rqv3b","time_elapsed":25445,"trial_index":19,"trial_type":"html-keyboard-response","word":"UNDER"},{"StartTime":1587609082718,"internal_node_id":"0.0-6.0-2.4","phase":"Feedback","stimulus":"<p id = 'fixation_stim', style = 'color: white; font-size: 60pt;'>BLANK</p>","subject":"g2bw3nwyg2rqv3b","time_elapsed":25447,"trial_index":20,"trial_type":"html-keyboard-response"},{"StartTime":1587609082718,"internal_node_id":"0.0-6.0-0.5","phase":"Fixation","stimulus":"<p id = 'fixation_stim', style = 'color: black; font-size: 60pt;'>+</p>","subject":"g2bw3nwyg2rqv3b","time_elapsed":25698,"trial_index":21,"trial_type":"html-keyboard-response"},{"StartTime":1587609082718,"colour":"green","cor_response":"l","correct":true,"internal_node_id":"0.0-6.0-1.5","key_press":76,"phase":"Practice","rt":486,"stim_type":"Practice","stimulus":"<p id = 'contingency_stim', style = 'color: green; font-size: 60pt;'>CLOCK</p>","subject":"g2bw3nwyg2rqv3b","time_elapsed":26186,"trial_index":22,"trial_type":"html-keyboard-response","word":"CLOCK"},{"StartTime":1587609082718,"internal_node_id":"0.0-6.0-2.5","phase":"Feedback","stimulus":"<p id = 'fixation_stim', style = 'color: white; font-size: 60pt;'>BLANK</p>","subject":"g2bw3nwyg2rqv3b","time_elapsed":26187,"trial_index":23,"trial_type":"html-keyboard-response"},{"StartTime":1587609082718,"internal_node_id":"0.0-6.0-0.6","phase":"Fixation","stimulus":"<p id = 'fixation_stim', style = 'color: black; font-size: 60pt;'>+</p>","subject":"g2bw3nwyg2rqv3b","time_elapsed":26438,"trial_index":24,"trial_type":"html-keyboard-response"},{"StartTime":1587609082718,"colour":"green","cor_response":"l","correct":true,"internal_node_id":"0.0-6.0-1.6","key_press":76,"phase":"Practice","rt":589,"stim_type":"Practice","stimulus":"<p id = 'contingency_stim', style = 'color: green; font-size: 60pt;'>PAINT</p>","subject":"g2bw3nwyg2rqv3b","time_elapsed":27028,"trial_index":25,"trial_type":"html-keyboard-response","word":"PAINT"},{"StartTime":1587609082718,"internal_node_id":"0.0-6.0-2.6","phase":"Feedback","stimulus":"<p id = 'fixation_stim', style = 'color: white; font-size: 60pt;'>BLANK</p>","subject":"g2bw3nwyg2rqv3b","time_elapsed":27029,"trial_index":26,"trial_type":"html-keyboard-response"},{"StartTime":1587609082718,"internal_node_id":"0.0-6.0-0.7","phase":"Fixation","stimulus":"<p id = 'fixation_stim', style = 'color: black; font-size: 60pt;'>+</p>","subject":"g2bw3nwyg2rqv3b","time_elapsed":27281,"trial_index":27,"trial_type":"html-keyboard-response"},{"StartTime":1587609082718,"colour":"yellow","cor_response":"k","correct":true,"internal_node_id":"0.0-6.0-1.7","key_press":75,"phase":"Practice","rt":495,"stim_type":"Practice","stimulus":"<p id = 'contingency_stim', style = 'color: yellow; font-size: 60pt;'>CLOCK</p>","subject":"g2bw3nwyg2rqv3b","time_elapsed":27777,"trial_index":28,"trial_type":"html-keyboard-response","word":"CLOCK"},{"StartTime":1587609082718,"internal_node_id":"0.0-6.0-2.7","phase":"Feedback","stimulus":"<p id = 'fixation_stim', style = 'color: white; font-size: 60pt;'>BLANK</p>","subject":"g2bw3nwyg2rqv3b","time_elapsed":27779,"trial_index":29,"trial_type":"html-keyboard-response"},{"StartTime":1587609082718,"internal_node_id":"0.0-6.0-0.8","phase":"Fixation","stimulus":"<p id = 'fixation_stim', style = 'color: black; font-size: 60pt;'>+</p>","subject":"g2bw3nwyg2rqv3b","time_elapsed":28029,"trial_index":30,"trial_type":"html-keyboard-response"},{"StartTime":1587609082718,"colour":"yellow","cor_response":"k","correct":true,"internal_node_id":"0.0-6.0-1.8","key_press":75,"phase":"Practice","rt":385,"stim_type":"Practice","stimulus":"<p id = 'contingency_stim', style = 'color: yellow; font-size: 60pt;'>PAINT</p>","subject":"g2bw3nwyg2rqv3b","time_elapsed":28416,"trial_index":31,"trial_type":"html-keyboard-response","word":"PAINT"},{"StartTime":1587609082718,"internal_node_id":"0.0-6.0-2.8","phase":"Feedback","stimulus":"<p id = 'fixation_stim', style = 'color: white; font-size: 60pt;'>BLANK</p>","subject":"g2bw3nwyg2rqv3b","time_elapsed":28417,"trial_index":32,"trial_type":"html-keyboard-response"},{"StartTime":1587609082718,"internal_node_id":"0.0-6.0-0.9","phase":"Fixation","stimulus":"<p id = 'fixation_stim', style = 'color: black; font-size: 60pt;'>+</p>","subject":"g2bw3nwyg2rqv3b","time_elapsed":28668,"trial_index":33,"trial_type":"html-keyboard-response"},{"StartTime":1587609082718,"colour":"green","cor_response":"l","correct":false,"internal_node_id":"0.0-6.0-1.9","key_press":74,"phase":"Practice","rt":572,"stim_type":"Practice","stimulus":"<p id = 'contingency_stim', style = 'color: green; font-size: 60pt;'>PLATE</p>","subject":"g2bw3nwyg2rqv3b","time_elapsed":29241,"trial_index":34,"trial_type":"html-keyboard-response","word":"PLATE"},{"StartTime":1587609082718,"internal_node_id":"0.0-6.0-2.9","phase":"Feedback","stimulus":"<p id = 'fixation_stim', style = 'color: black; font-size: 60pt;'>XXX</p>","subject":"g2bw3nwyg2rqv3b","time_elapsed":30243,"trial_index":35,"trial_type":"html-keyboard-response"},{"StartTime":1587609082718,"internal_node_id":"0.0-6.0-0.10","phase":"Fixation","stimulus":"<p id = 'fixation_stim', style = 'color: black; font-size: 60pt;'>+</p>","subject":"g2bw3nwyg2rqv3b","time_elapsed":30495,"trial_index":36,"trial_type":"html-keyboard-response"},{"StartTime":1587609082718,"colour":"red","cor_response":"j","correct":true,"internal_node_id":"0.0-6.0-1.10","key_press":74,"phase":"Practice","rt":1189.9999999999964,"stim_type":"Practice","stimulus":"<p id = 'contingency_stim', style = 'color: red; font-size: 60pt;'>PLATE</p>","subject":"g2bw3nwyg2rqv3b","time_elapsed":31686,"trial_index":37,"trial_type":"html-keyboard-response","word":"PLATE"},{"StartTime":1587609082718,"internal_node_id":"0.0-6.0-2.10","phase":"Feedback","stimulus":"<p id = 'fixation_stim', style = 'color: white; font-size: 60pt;'>BLANK</p>","subject":"g2bw3nwyg2rqv3b","time_elapsed":31688,"trial_index":38,"trial_type":"html-keyboard-response"},{"StartTime":1587609082718,"internal_node_id":"0.0-6.0-0.11","phase":"Fixation","stimulus":"<p id = 'fixation_stim', style = 'color: black; font-size: 60pt;'>+</p>","subject":"g2bw3nwyg2rqv3b","time_elapsed":31939,"trial_index":39,"trial_type":"html-keyboard-response"},{"StartTime":1587609082718,"colour":"yellow","cor_response":"k","correct":true,"internal_node_id":"0.0-6.0-1.11","key_press":75,"phase":"Practice","rt":620,"stim_type":"Practice","stimulus":"<p id = 'contingency_stim', style = 'color: yellow; font-size: 60pt;'>UNDER</p>","subject":"g2bw3nwyg2rqv3b","time_elapsed":32559,"trial_index":40,"trial_type":"html-keyboard-response","word":"UNDER"},{"StartTime":1587609082718,"internal_node_id":"0.0-6.0-2.11","phase":"Feedback","stimulus":"<p id = 'fixation_stim', style = 'color: white; font-size: 60pt;'>BLANK</p>","subject":"g2bw3nwyg2rqv3b","time_elapsed":32561,"trial_index":41,"trial_type":"html-keyboard-response"},{"StartTime":1587609082718,"fullscreen":false,"internal_node_id":"0.0-7.0-0.0-0.0","phase":"Survey","responses":"{\"Par_Age\":\"45\"}","rt":1846,"subject":"g2bw3nwyg2rqv3b","time_elapsed":34412,"trial_index":42,"trial_type":"survey-text"},{"StartTime":1587609082718,"fullscreen":false,"internal_node_id":"0.0-7.0-1.0","phase":"Survey","responses":"{\"Gender_Q\":\"Male\",\"other_gender_fill_in\":\"\"}","rt":2279,"subject":"g2bw3nwyg2rqv3b","time_elapsed":36692,"trial_index":43,"trial_type":"survey-html-form"},{"StartTime":1587609082718,"fullscreen":false,"internal_node_id":"0.0-7.0-2.0","phase":"Survey","responses":"{\"Country_Q\":\"Other_country\",\"other_country_fill_in\":\"Australia\"}","rt":4499,"subject":"g2bw3nwyg2rqv3b","time_elapsed":41191,"trial_index":44,"trial_type":"survey-html-form"},{"StartTime":1587609082718,"fullscreen":false,"internal_node_id":"0.0-7.0-3.0","phase":"Survey","responses":"{\"Par_ID\":\"2020-04-23-JMT\"}","rt":12933,"subject":"g2bw3nwyg2rqv3b","time_elapsed":54130,"trial_index":45,"trial_type":"survey-text"},{"StartTime":1587609082718,"internal_node_id":"0.0-8.0","subject":"g2bw3nwyg2rqv3b","success":true,"time_elapsed":55131,"trial_index":46,"trial_type":"fullscreen"}]}}